File: data/historical/XRD_historical_data.csv
timestamp,close,volume
2025-01-27,0.01233,386725.511
2025-01-26,0.01228,3.19779e+07
2025-01-25,0.01311,2.63226e+07
2025-01-24,0.01305,3.26434e+07
2025-01-23,0.01571,3.38299e+07
2025-01-22,0.01516,1.63742e+07
2025-01-21,0.01615,2.05052e+07
2025-01-20,0.01505,1.90635e+07
2025-01-19,0.01591,3.18446e+07
2025-01-18,0.01727,1.06989e+07
2025-01-17,0.01884,7342866.185
2025-01-16,0.01894,7.44769e+06
2025-01-15,0.01969,1.49512e+07
2025-01-14,0.01844,9.10794e+06
2025-01-13,0.01838,2.09444e+07
2025-01-12,0.0195,9.42303e+06
2025-01-11,0.01933,9.15374e+06
2025-01-10,0.01928,9.3129e+06
2025-01-09,0.01902,1.22289e+07
2025-01-08,0.01995,2.03021e+07
2025-01-07,0.02223,1.02054e+07
2025-01-06,0.0238,1.07973e+07
2025-01-05,0.02396,6.63204e+06
2025-01-04,0.0243,1.096e+07
2025-01-03,0.02357,5.65815e+06
2025-01-02,0.02237,8.07009e+06
2025-01-01,0.02219,1.48442e+07
2024-12-31,0.02265,1.34407e+07
2024-12-30,0.023,6.37444e+06
2024-12-29,0.02364,4.7709e+06
2024-12-28,0.02456,4.9513e+06
2024-12-27,0.02439,9572429.62
2024-12-26,0.0235,1.01374e+07
2024-12-25,0.02523,1.0622e+07
2024-12-24,0.02605,1.0785e+07
2024-12-23,0.02471,8.52806e+06
2024-12-22,0.02461,1.02986e+07
2024-12-21,0.02445,1.39761e+07
2024-12-20,0.02592,3.08432e+07
2024-12-19,0.02601,1.66987e+07
2024-12-18,0.02707,1.396e+07
2024-12-17,0.02867,2.37538e+07
2024-12-16,0.03283,2.02155e+07
2024-12-15,0.03364,1.42233e+07
2024-12-14,0.03242,1.75643e+07
2024-12-13,0.0339,2.28402e+07
2024-12-12,0.03365,2.18556e+07
2024-12-11,0.03526,3.46463e+07
2024-12-10,0.0324,3.7332e+07
2024-12-09,0.03497,4.56968e+07
2024-12-08,0.03581,3.04273e+07
2024-12-07,0.03813,2.1446e+07
2024-12-06,0.03529,3.7633e+07
2024-12-05,0.03433,3.61142e+07
2024-12-04,0.03383,3.21625e+07
2024-12-03,0.033,3.73105e+07
2024-12-02,0.02964,1.9107e+07
2024-12-01,0.02981,1.71168e+07
2024-11-30,0.03053,2.58238e+07
2024-11-29,0.03015,5.14268e+07
2024-11-28,0.02718,3.22218e+07
2024-11-27,0.02796,5.59241e+07
2024-11-26,0.02394,5.08906e+07
2024-11-25,0.02224,2.05978e+07
2024-11-24,0.02128,1.8466e+07
2024-11-23,0.02226,5.41852e+07
2024-11-22,0.02067,3.55783e+07
2024-11-21,0.01726,13277786.865
2024-11-20,0.01662,1.42512e+07
2024-11-19,0.01669,1.40559e+07
2024-11-18,0.01724,1.35996e+07
2024-11-17,0.01644,1.01305e+07
2024-11-16,0.01631,1.20225e+07
2024-11-15,0.01603,7.07223e+06
2024-11-14,0.01587,9.84082e+06
2024-11-13,0.0165,1.78269e+07
2024-11-12,0.01618,2.61617e+07
2024-11-11,0.01745,2.27283e+07
2024-11-10,0.01721,1.81735e+07
2024-11-09,0.01649,7.35346e+06
2024-11-08,0.01623,1.21131e+07
2024-11-07,0.01631,10024720.088
2024-11-06,0.01583,1.51559e+07
2024-11-05,0.01466,1.45011e+07
2024-11-04,0.01462,7.47579e+06
2024-11-03,0.01528,6.14854e+06
2024-11-02,0.01585,4.84351e+06
2024-11-01,0.01565,7.05323e+06
2024-10-31,0.01606,2.27759e+07
2024-10-30,0.01557,1.2272e+07
2024-10-29,0.01575,4.97701e+06
2024-10-28,0.01534,4.99672e+06
2024-10-27,0.0154,5.20803e+06
2024-10-26,0.01499,1.7592e+07
2024-10-25,0.01466,1.02079e+07
2024-10-24,0.01574,3.08892e+06
2024-10-23,0.01562,6.70781e+06
2024-10-22,0.01635,5.8195e+06
2024-10-21,0.01665,1.43762e+07
2024-10-20,0.01725,6.07575e+06
2024-10-19,0.01731,11734354.132
2024-10-18,0.01735,1.9999e+07
2024-10-17,0.01585,5.55615e+06
2024-10-16,0.0161,1.02034e+07
2024-10-15,0.0162,1.55678e+07
2024-10-14,0.01627,1.36244e+07
2024-10-13,0.01492,8.89245e+06
2024-10-12,0.01516,9.61789e+06
2024-10-11,0.01498,1.67271e+07
2024-10-10,0.01376,3.1635e+07
2024-10-09,0.01466,1.10379e+07
2024-10-08,0.01553,1.1871e+07
2024-10-07,0.0161,1.04446e+07
2024-10-06,0.01651,9.24019e+06
2024-10-05,0.01627,1.3744e+07
2024-10-04,0.01663,2.18625e+07
2024-10-03,0.01633,2.08655e+07
2024-10-02,0.01736,1.33693e+07
2024-10-01,0.01732,3.16667e+07
2024-09-30,0.01906,2.05628e+07
2024-09-29,0.02083,9.40159e+06
2024-09-28,0.02161,8.6457e+06
2024-09-27,0.02176,3.6104e+07
2024-09-26,0.02121,1.00724e+07
2024-09-25,0.02125,1.46611e+07
2024-09-24,0.02119,5.16855e+06
2024-09-23,0.02112,7.99976e+06
2024-09-22,0.02086,8.22168e+06
2024-09-21,0.02168,5.08415e+06
2024-09-20,0.02146,5.84828e+06
2024-09-19,0.0214,1.0117e+07
2024-09-18,0.02084,1.32045e+07
2024-09-17,0.02066,6.3323e+06
2024-09-16,0.02014,7.46399e+06
2024-09-15,0.02052,8.35922e+06
2024-09-14,0.02156,8.78287e+06
2024-09-13,0.02187,2.50577e+07
2024-09-12,0.02135,1.86112e+07
2024-09-11,0.0195,1.93932e+07
2024-09-10,0.02061,5.23826e+06
2024-09-09,0.0209,7.82724e+06
2024-09-08,0.02048,3.98796e+06
2024-09-07,0.02045,7268719.844
2024-09-06,0.0208,7.48959e+06
2024-09-05,0.02203,2.02039e+06
2024-09-04,0.02267,2.71076e+06
2024-09-03,0.02264,1988848.444
2024-09-02,0.02307,2122349.469
2024-09-01,0.02254,2077566.773
2024-08-31,0.023,3.29543e+06
2024-08-30,0.02328,8.45728e+06
2024-08-29,0.0234,4.65288e+06
2024-08-28,0.0235,7.02319e+06
2024-08-27,0.0233,8.17821e+06
2024-08-26,0.02467,5.43355e+06
2024-08-25,0.02494,3.8945e+06
2024-08-24,0.02539,3.97689e+06
2024-08-23,0.02565,1.00614e+07
2024-08-22,0.02371,3.50892e+06
2024-08-21,0.02389,7.04855e+06
2024-08-20,0.02317,5.24646e+06
2024-08-19,0.02353,5.67904e+06
2024-08-18,0.02367,6.86567e+06
2024-08-17,0.02383,1.02977e+07
2024-08-16,0.02525,8.70912e+06
2024-08-15,0.02539,7.48201e+06
2024-08-14,0.02648,3.31034e+06
2024-08-13,0.02694,2.6997e+06
2024-08-12,0.0271,5.26621e+06
2024-08-11,0.02668,4.61474e+06
2024-08-10,0.02822,5.16968e+06
2024-08-09,0.02775,5.74519e+06
2024-08-08,0.02743,8.63437e+06
2024-08-07,0.02484,7.76073e+06
2024-08-06,0.02484,1.56921e+07
2024-08-05,0.02315,6.4307e+07
2024-08-04,0.02359,4.10012e+07
2024-08-03,0.02428,3.17524e+07
2024-08-02,0.02551,5.91703e+07
2024-08-01,0.02774,1.06734e+08
2024-07-31,0.02784,1.25186e+08
2024-07-30,0.02792,5.08811e+07
2024-07-29,0.028,8.79542e+06
2024-07-28,0.02826,4.60448e+06
2024-07-27,0.02849,5.32423e+06
2024-07-26,0.0287,8.31836e+06
2024-07-25,0.0272,7.18825e+06
2024-07-24,0.02729,7.53008e+06
2024-07-23,0.02768,9113088.576
2024-07-22,0.02822,1.1672e+07
2024-07-21,0.02873,8.00507e+06
2024-07-20,0.02875,5.7265e+06
2024-07-19,0.02902,1.31958e+07
2024-07-18,0.0295,5.23191e+06
2024-07-17,0.02971,7.43606e+06
2024-07-16,0.02936,1.23386e+07
2024-07-15,0.02978,1.08052e+07
2024-07-14,0.02849,4.50327e+06
2024-07-13,0.02782,9944923.383
2024-07-12,0.02772,6.4798e+06
2024-07-11,0.02797,4.23347e+06
2024-07-10,0.02852,4.84076e+06
2024-07-09,0.02836,4.33763e+06
2024-07-08,0.02807,1.06501e+07
2024-07-07,0.02755,7.94972e+06
2024-07-06,0.02952,8.4114e+06
2024-07-05,0.02871,1.8619e+07
2024-07-04,0.02892,1.33265e+07
2024-07-03,0.03065,14523788.885
2024-07-02,0.03132,9.26709e+06
2024-07-01,0.03081,8.13377e+06
2024-06-30,0.0304,3.69372e+06
2024-06-29,0.02943,7.95863e+06
2024-06-28,0.02982,7.01732e+06
2024-06-27,0.0299,5.38491e+06
2024-06-26,0.02933,5.12409e+06
2024-06-25,0.02996,7.90774e+06
2024-06-24,0.02816,1.52817e+07
2024-06-23,0.03028,3.65323e+06
2024-06-22,0.03079,4.08119e+06
2024-06-21,0.03121,6.42207e+06
2024-06-20,0.03237,4.33992e+06
2024-06-19,0.03283,3.90403e+06
2024-06-18,0.03226,1.61837e+07
2024-06-17,0.03331,1.11052e+07
2024-06-16,0.03508,2.21944e+06
2024-06-15,0.03459,3.36178e+06
2024-06-14,0.03445,9.7228e+06
2024-06-13,0.03516,8.77903e+06
2024-06-12,0.03686,7.64279e+06
2024-06-11,0.03709,7.27054e+06
2024-06-10,0.03872,5.08098e+06
2024-06-09,0.03914,2.32919e+06
2024-06-08,0.03911,5.68438e+06
2024-06-07,0.03905,7.61961e+06
2024-06-06,0.03986,4.15542e+06
2024-06-05,0.04001,7.41926e+06
2024-06-04,0.04024,9.10287e+06
2024-06-03,0.03917,4609324.387
2024-06-02,0.03907,6476148.335
2024-06-01,0.03901,4.69081e+06
2024-05-31,0.0392,8015744.156
2024-05-30,0.03937,8.54202e+06
2024-05-29,0.03938,1.17474e+07
2024-05-28,0.04016,7.80762e+06
2024-05-27,0.04106,6.14924e+06
2024-05-26,0.04094,6.43016e+06
2024-05-25,0.04124,3903579.145
2024-05-24,0.04127,6.24179e+06
2024-05-23,0.04271,9.99865e+06
2024-05-22,0.04354,6518748.777
2024-05-21,0.04518,6.99307e+06
2024-05-20,0.0461,8.86477e+06
2024-05-19,0.04382,4.31722e+06
2024-05-18,0.04542,5.25329e+06
2024-05-17,0.04483,7.82857e+06
2024-05-16,0.04407,9.40945e+06
2024-05-15,0.04495,9108082.599
2024-05-14,0.0427,6.88799e+06
2024-05-13,0.0442,9.19367e+06
2024-05-12,0.04426,2.60009e+06
2024-05-11,0.04416,4.96674e+06
2024-05-10,0.04468,1.44912e+07
2024-05-09,0.04642,2.10647e+07
2024-05-08,0.04212,5.47429e+06
2024-05-07,0.04374,9.33763e+06
2024-05-06,0.04398,7.89264e+06
2024-05-05,0.04549,4.70432e+06
2024-05-04,0.04646,7.46574e+06
2024-05-03,0.04458,9.21355e+06
2024-05-02,0.04334,1.49036e+07
2024-05-01,0.0432,2.75232e+07
2024-04-30,0.04609,8.45564e+06
2024-04-29,0.04884,6.14145e+06
2024-04-28,0.05,3.17187e+06
2024-04-27,0.05033,4.57982e+06
2024-04-26,0.05137,4.29571e+06
2024-04-25,0.05236,5.41537e+06
2024-04-24,0.0516,4.8161e+06
2024-04-23,0.05434,2.5623e+06
2024-04-22,0.05485,3.30183e+06
2024-04-21,0.05425,4.48267e+06
2024-04-20,0.05516,7.49588e+06
2024-04-19,0.05276,7.84985e+06
2024-04-18,0.0524,7.2867e+06
2024-04-17,0.05181,5.45114e+06
2024-04-16,0.05372,5.44434e+06
2024-04-15,0.05531,1.05715e+07
2024-04-14,0.05885,8.08737e+06
2024-04-13,0.05707,1.31489e+07
2024-04-12,0.06215,1.68981e+07
2024-04-11,0.06804,8.14339e+06
2024-04-10,0.07153,1.09967e+07
2024-04-09,0.07168,7.15222e+06
2024-04-08,0.07727,6.09061e+06
2024-04-07,0.07425,4.9842e+06
2024-04-06,0.07269,5.49159e+06
2024-04-05,0.06993,9.31008e+06
2024-04-04,0.06965,8.30145e+06
2024-04-03,0.06769,6.93634e+06
2024-04-02,0.06742,9.17907e+06
2024-04-01,0.07279,9.09128e+06
2024-03-31,0.07675,3.28189e+06
2024-03-30,0.0754,3.78853e+06
2024-03-29,0.07735,7.20808e+06
2024-03-28,0.08101,8.76055e+06
2024-03-27,0.0781,1.70287e+07
2024-03-26,0.08117,4.07826e+07
2024-03-25,0.08056,4.35465e+07
2024-03-24,0.07063,1.30568e+07
2024-03-23,0.06745,15840862.667
2024-03-22,0.06582,3.13337e+07
2024-03-21,0.06874,2.14999e+07
2024-03-20,0.07068,3.87219e+07
2024-03-19,0.06403,5.65697e+07
2024-03-18,0.07146,7.35088e+07
2024-03-17,0.06643,6.8951e+07
2024-03-16,0.05633,3.20375e+07
2024-03-15,0.06485,5.52474e+07
2024-03-14,0.06273,9.15923e+07
2024-03-13,0.0605,1.17526e+08
2024-03-12,0.04394,3.29777e+07
2024-03-11,0.04405,42684618.224
2024-03-10,0.04245,2.5887e+07
2024-03-09,0.03977,2.02029e+07
2024-03-08,0.03896,3.10744e+07
2024-03-07,0.03946,5.28123e+07
2024-03-06,0.04001,4.92356e+07
2024-03-05,0.04079,7.74579e+07
2024-03-04,0.04494,2.80028e+07
2024-03-03,0.0452,2.49981e+07
2024-03-02,0.04536,2.02975e+07
2024-03-01,0.0449,1.52322e+07
2024-02-29,0.04373,2.76831e+07
2024-02-28,0.04428,3.49034e+07
2024-02-27,0.04658,1.78066e+07
2024-02-26,0.04781,1.60702e+07
2024-02-25,0.04738,1.18513e+07
2024-02-24,0.04581,9.37496e+06
2024-02-23,0.04499,1.46484e+07
2024-02-22,0.04611,1.56893e+07
2024-02-21,0.04776,1.73165e+07
2024-02-20,0.04829,2.48734e+07
2024-02-19,0.04878,3.89941e+07
2024-02-18,0.0513,2.83547e+07
2024-02-17,0.04484,1.60606e+07
2024-02-16,0.04281,1.26315e+07
2024-02-15,0.04364,2.03136e+07
2024-02-14,0.04348,1.88903e+07
2024-02-13,0.04169,1.60271e+07
2024-02-12,0.04154,1.53597e+07
2024-02-11,0.04003,1.1625e+07
2024-02-10,0.04222,13451713.093
2024-02-09,0.0394,1.11379e+07
2024-02-08,0.03873,1.16391e+07
2024-02-07,0.03975,9.73339e+06
2024-02-06,0.03946,1.13338e+07
2024-02-05,0.039,8.36062e+06
2024-02-04,0.03962,7.44053e+06
2024-02-03,0.04028,6.86972e+06
2024-02-02,0.04074,8.28135e+06
2024-02-01,0.04033,1.29434e+07
2024-01-31,0.03998,2.06791e+07
2024-01-30,0.04065,1.50226e+07
2024-01-29,0.04248,1.65078e+07